电压/V	功率/mW	VT/uWb	Iset	开关状态	ILr
1.900	9.249	0.938	0.200	0.000	0.019
2.380	14.578	1.172	0.250	0.000	0.024
2.850	21.157	1.404	0.300	0.000	0.024
3.330	28.650	1.639	0.350	0.000	0.019
3.800	37.388	1.868	0.400	0.000	0.018
4.290	47.672	2.095	0.450	0.000	0.022
4.770	59.043	2.334	0.500	0.000	0.022
5.250	71.529	2.570	0.550	0.000	0.021
5.730	85.163	2.803	0.600	0.000	0.021
6.220	100.390	3.046	0.650	0.000	0.019
6.710	116.936	3.276	0.700	0.000	0.023
7.180	134.173	3.519	0.750	0.000	0.020
7.650	152.511	3.744	0.800	0.000	0.019
8.140	172.448	3.982	0.850	0.000	0.022
8.620	193.634	6.108	0.900	0.000	0.020
9.090	216.025	6.224	0.950	0.000	0.017
9.570	239.241	6.338	1.000	0.000	0.019
10.060	264.620	6.454	1.050	0.000	0.015
10.540	290.970	6.565	1.100	0.000	0.022
11.020	318.720	6.570	1.150	0.000	0.021
11.500	347.627	6.572	1.200	0.000	0.020
11.990	377.818	6.573	1.250	0.000	0.022
12.470	410.457	6.573	1.300	0.000	0.023
12.950	442.239	6.574	1.350	0.000	0.026
13.430	476.882	6.575	1.400	0.000	0.019
13.910	513.039	6.575	1.450	0.000	0.023
14.390	549.576	6.576	1.500	0.000	0.023
14.870	588.084	6.576	1.550	0.000	0.019
15.350	628.135	6.577	1.600	0.000	0.018
15.840	669.176	6.577	1.650	0.000	0.018
16.320	711.677	6.578	1.700	0.000	0.021
16.790	755.642	6.578	1.750	0.000	0.024
17.270	800.393	6.578	1.800	0.000	0.020
17.750	845.786	6.579	1.850	0.000	0.017
18.230	893.325	6.579	1.900	0.000	0.022
18.720	943.941	6.579	1.950	0.000	0.018
19.200	993.914	6.579	2.000	0.000	0.021
19.680	1045.498	6.580	2.050	0.000	0.018
20.160	1099.507	6.580	2.100	0.000	0.017
20.650	1153.637	6.580	2.150	0.000	0.024
21.140	1209.600	6.581	2.200	0.000	0.020
21.610	1266.249	6.581	2.250	0.000	0.017
22.100	1325.987	6.581	2.300	0.000	0.020
22.590	1384.553	6.581	2.350	0.000	0.021
23.070	1447.272	6.581	2.400	0.000	0.022
23.550	1508.697	6.581	2.450	0.000	0.018
24.030	1572.693	6.582	2.500	0.000	0.019
24.520	1637.225	6.582	2.550	0.000	0.020
25.000	1704.312	6.582	2.600	0.000	0.022
25.480	1771.344	6.582	2.650	0.000	0.017
25.960	1839.691	6.582	2.700	0.000	0.021
26.450	1910.562	6.582	2.750	0.000	0.019
26.930	1981.316	6.582	2.800	0.000	0.015
27.420	2056.320	6.583	2.850	0.000	0.019
27.910	2130.682	6.583	2.900	0.000	0.018
28.380	2205.744	6.583	2.950	0.000	0.014
28.870	2283.660	6.583	3.000	0.000	0.020
29.350	2360.885	6.583	3.050	0.000	0.018
29.830	2439.743	6.583	3.100	0.000	0.017
30.310	2519.030	6.583	3.150	0.000	0.019
30.800	2600.842	6.583	3.200	0.000	0.019
31.290	2685.849	6.583	3.250	0.000	0.019
31.760	2767.977	6.583	3.300	0.000	0.022
32.240	2854.070	6.583	3.350	0.000	0.019
32.730	2941.650	6.584	3.400	0.000	0.016
33.210	3030.595	6.583	3.450	0.000	0.017
33.690	3120.469	6.584	3.500	0.000	0.016
34.160	3208.602	6.584	3.550	0.000	0.019
34.650	3302.115	6.584	3.600	0.000	0.021
35.140	3396.838	6.584	3.650	0.000	0.017
35.620	3490.404	6.584	3.700	0.000	0.020
36.100	3588.069	6.584	3.750	0.000	0.017
36.590	3685.235	6.584	3.800	0.000	0.017
37.070	3784.958	6.584	3.850	0.000	0.018
37.550	3885.989	6.584	3.900	0.000	0.018
38.040	3988.070	6.584	3.950	0.000	0.020
38.520	4091.099	6.584	4.000	0.000	0.018
39.000	4196.712	6.584	4.050	0.000	0.018
39.480	4300.825	6.584	4.100	0.000	0.021
39.960	4409.698	6.584	4.150	0.000	0.019
40.440	4518.558	6.584	4.200	0.000	0.020
40.930	4626.686	6.584	4.250	0.000	0.019
41.410	4738.546	6.584	4.300	0.000	0.016
41.900	4853.696	6.584	4.350	0.000	0.023
42.380	4965.468	6.585	4.400	0.000	0.018
42.870	5083.185	6.584	4.450	0.000	0.016
43.350	5200.528	6.584	4.500	0.000	0.022
43.840	5321.299	6.585	4.550	0.000	0.018
44.330	5442.184	6.585	4.600	0.000	0.022
44.810	5563.849	6.585	4.650	0.000	0.019
45.280	5685.889	6.585	4.700	0.000	0.020
45.770	5809.520	6.585	4.750	0.000	0.018
46.260	5937.738	6.585	4.800	0.000	0.018
46.740	6062.430	6.585	4.850	0.000	0.020
47.230	6192.672	6.585	4.900	0.000	0.019
47.710	6321.527	6.585	4.950	0.000	0.020
48.190	6453.728	6.585	5.000	0.000	0.021
0.000	0.000	0.000	0.000	0.000	0.000
