电压/V	功率/mW	VT/uWb	Iset	开关状态	ILr
1.260	8.421	0.627	0.200	0.000	0.017
1.580	13.371	0.780	0.250	0.000	0.019
1.900	19.533	0.935	0.300	0.000	0.017
2.220	26.616	1.090	0.350	0.000	0.018
2.540	34.970	1.246	0.400	0.000	0.022
2.860	44.502	1.399	0.450	0.000	0.015
3.180	55.115	1.560	0.500	0.000	0.018
3.500	66.718	1.716	0.550	0.000	0.017
3.820	79.639	1.866	0.600	0.000	0.020
4.140	93.933	2.023	0.650	0.000	0.015
4.460	109.159	2.178	0.700	0.000	0.015
4.790	125.545	2.335	0.750	0.000	0.016
5.100	142.346	2.485	0.800	0.000	0.019
5.420	161.021	2.644	0.850	0.000	0.016
5.740	180.699	2.800	0.900	0.000	0.018
6.060	201.295	2.958	0.950	0.000	0.016
6.380	222.874	5.556	1.000	0.000	0.018
6.710	246.071	5.634	1.050	0.000	0.019
7.020	270.755	5.712	1.100	0.000	0.019
7.340	295.789	5.790	1.150	0.000	0.019
7.670	322.493	5.865	1.200	0.000	0.022
7.990	350.201	5.946	1.250	0.000	0.020
8.310	378.751	6.022	1.300	0.000	0.025
8.630	408.546	6.098	1.350	0.000	0.022
8.960	439.350	6.174	1.400	0.000	0.022
9.270	471.307	6.251	1.450	0.000	0.020
9.600	504.313	6.327	1.500	0.000	0.020
9.920	538.330	6.401	1.550	0.000	0.020
10.240	573.277	6.480	1.600	0.000	0.022
10.550	609.547	6.557	1.650	0.000	0.022
10.870	646.915	6.572	1.700	0.000	0.021
11.200	685.768	6.574	1.750	0.000	0.020
11.520	725.489	6.576	1.800	0.000	0.021
11.840	766.456	6.576	1.850	0.000	0.022
12.160	808.099	6.577	1.900	0.000	0.024
12.480	851.418	6.577	1.950	0.000	0.021
12.810	898.715	6.578	2.000	0.000	0.017
13.130	943.437	6.578	2.050	0.000	0.014
13.450	989.570	6.578	2.100	0.000	0.015
13.770	1036.153	6.579	2.150	0.000	0.015
14.090	1085.127	6.579	2.200	0.000	0.019
14.420	1134.847	6.579	2.250	0.000	0.018
14.740	1185.525	6.580	2.300	0.000	0.019
15.070	1238.697	6.580	2.350	0.000	0.021
15.390	1291.103	6.580	2.400	0.000	0.021
15.700	1344.906	6.580	2.450	0.000	0.020
16.020	1398.288	6.580	2.500	0.000	0.021
16.350	1455.883	6.581	2.550	0.000	0.016
16.670	1511.705	6.581	2.600	0.000	0.018
16.980	1568.202	6.581	2.650	0.000	0.018
17.320	1628.497	6.581	2.700	0.000	0.016
17.640	1689.753	6.581	2.750	0.000	0.017
17.960	1749.250	6.582	2.800	0.000	0.019
18.280	1811.588	6.582	2.850	0.000	0.022
18.610	1877.180	6.582	2.900	0.000	0.015
18.920	1942.604	6.582	2.950	0.000	0.015
19.250	2008.006	6.582	3.000	0.000	0.020
19.580	2075.506	6.582	3.050	0.000	0.019
19.890	2143.349	6.582	3.100	0.000	0.016
20.220	2214.036	6.583	3.150	0.000	0.017
20.540	2285.099	6.583	3.200	0.000	0.018
20.860	2356.940	6.583	3.250	0.000	0.019
21.180	2430.042	6.583	3.300	0.000	0.015
21.510	2504.621	6.583	3.350	0.000	0.018
21.820	2579.809	6.583	3.400	0.000	0.019
22.150	2656.783	6.583	3.450	0.000	0.019
22.470	2734.346	6.583	3.500	0.000	0.019
22.790	2812.728	6.583	3.550	0.000	0.021
23.110	2892.205	6.583	3.600	0.000	0.020
23.430	2973.053	6.583	3.650	0.000	0.017
23.750	3056.064	6.583	3.700	0.000	0.018
24.080	3138.813	6.583	3.750	0.000	0.018
24.390	3223.624	6.583	3.800	0.000	0.019
24.720	3309.934	6.584	3.850	0.000	0.017
25.040	3398.149	6.583	3.900	0.000	0.022
25.370	3484.279	6.583	3.950	0.000	0.017
25.680	3574.530	6.584	4.000	0.000	0.016
26.010	3666.487	6.584	4.050	0.000	0.017
26.340	3759.037	6.584	4.100	0.000	0.020
26.650	3851.873	6.584	4.150	0.000	0.016
26.980	3946.108	6.584	4.200	0.000	0.017
27.300	4042.178	6.584	4.250	0.000	0.021
27.620	4138.357	6.584	4.300	0.000	0.017
27.950	4235.796	6.584	4.350	0.000	0.016
28.270	4335.558	6.584	4.400	0.000	0.019
28.590	4435.277	6.584	4.450	0.000	0.017
28.910	4536.760	6.584	4.500	0.000	0.020
29.240	4641.188	6.584	4.550	0.000	0.020
29.560	4746.462	6.584	4.600	0.000	0.014
29.890	4851.328	6.584	4.650	0.000	0.016
30.210	4957.367	6.584	4.700	0.000	0.012
30.530	5066.432	6.584	4.750	0.000	0.019
30.840	5174.706	6.584	4.800	0.000	0.018
31.170	5284.834	6.584	4.850	0.000	0.019
31.490	5396.051	6.584	4.900	0.000	0.023
31.810	5509.036	6.584	4.950	0.000	0.019
32.140	5624.095	6.584	5.000	0.000	0.015
0.000	0.000	0.000	0.000	0.000	0.000
