电压/V	功率/mW	VT/uWb	Iset	开关状态	ILr
2.900	14.868	1.433	0.200	0.000	0.017
3.620	22.736	1.778	0.250	0.000	0.015
4.340	32.064	2.129	0.300	0.000	0.016
5.070	43.024	2.481	0.350	0.000	0.022
5.800	55.350	2.835	0.400	0.000	0.019
6.520	69.462	3.190	0.450	0.000	0.017
7.260	85.143	3.553	0.500	0.000	0.017
7.980	101.813	5.914	0.550	0.000	0.014
8.720	119.835	6.136	0.600	0.000	0.016
9.460	139.611	6.313	0.650	0.000	0.019
10.190	160.375	6.491	0.700	0.000	0.017
10.910	181.586	6.562	0.750	0.000	0.016
11.640	204.520	6.564	0.800	0.000	0.017
12.380	228.836	6.566	0.850	0.000	0.015
13.100	253.849	6.568	0.900	0.000	0.015
13.830	280.029	6.569	0.950	0.000	0.013
14.550	307.840	6.571	1.000	0.000	0.016
15.290	336.828	6.572	1.050	0.000	0.020
16.020	366.940	6.573	1.100	0.000	0.015
16.750	399.842	6.574	1.150	0.000	0.015
17.490	434.486	6.575	1.200	0.000	0.018
18.220	469.925	6.576	1.250	0.000	0.019
18.960	507.522	6.576	1.300	0.000	0.015
19.680	546.878	6.577	1.350	0.000	0.018
20.410	586.510	6.578	1.400	0.000	0.021
21.140	628.778	6.578	1.450	0.000	0.020
21.870	672.609	6.579	1.500	0.000	0.018
22.600	716.935	6.579	1.550	0.000	0.016
23.320	764.442	6.579	1.600	0.000	0.016
24.060	812.200	6.580	1.650	0.000	0.014
24.790	861.661	6.580	1.700	0.000	0.014
25.520	913.103	6.580	1.750	0.000	0.013
26.250	968.998	6.581	1.800	0.000	0.018
26.970	1024.543	6.581	1.850	0.000	0.012
27.700	1081.594	6.581	1.900	0.000	0.017
28.440	1140.756	6.582	1.950	0.000	0.012
29.160	1201.159	6.582	2.000	0.000	0.013
29.900	1264.620	6.582	2.050	0.000	0.013
30.630	1329.785	6.582	2.100	0.000	0.014
31.360	1396.986	6.582	2.150	0.000	0.013
32.110	1465.757	6.582	2.200	0.000	0.010
32.840	1533.144	6.582	2.250	0.000	0.014
33.580	1606.450	6.582	2.300	0.000	0.015
34.310	1679.721	6.583	2.350	0.000	0.016
35.040	1754.568	6.583	2.400	0.000	0.019
35.780	1830.694	6.583	2.450	0.000	0.010
36.510	1907.778	6.583	2.500	0.000	0.012
37.240	1987.480	6.583	2.550	0.000	0.016
37.960	2066.987	6.583	2.600	0.000	0.021
38.690	2149.094	6.583	2.650	0.000	0.017
39.430	2235.656	6.583	2.700	0.000	0.011
40.170	2319.396	6.583	2.750	0.000	0.019
40.900	2409.910	6.583	2.800	0.000	0.015
41.630	2497.405	6.584	2.850	0.000	0.017
42.370	2587.832	6.584	2.900	0.000	0.013
43.110	2679.132	6.584	2.950	0.000	0.013
43.840	2770.657	6.584	3.000	0.000	0.014
44.570	2864.667	6.584	3.050	0.000	0.013
45.310	2961.243	6.584	3.100	0.000	0.016
46.030	3062.383	6.584	3.150	0.000	0.014
46.760	3164.764	6.584	3.200	0.000	0.013
47.500	3274.834	6.584	3.250	0.000	0.015
48.230	3378.107	6.585	3.300	0.000	0.010
48.970	3487.559	6.585	3.350	0.000	0.016
49.710	3597.600	6.585	3.400	0.000	0.017
50.430	3706.292	6.585	3.450	0.000	0.017
51.160	3817.339	6.585	3.500	0.000	0.017
51.890	3929.985	6.585	3.550	0.000	0.017
52.630	4045.986	6.585	3.600	0.000	0.011
53.360	4159.252	6.585	3.650	0.000	0.016
54.090	4277.244	6.585	3.700	0.000	0.019
54.820	4397.198	6.585	3.750	0.000	0.018
55.560	4516.472	6.586	3.800	0.000	0.018
56.290	4641.476	6.586	3.850	0.000	0.017
57.020	4766.533	6.586	3.900	0.000	0.017
57.750	4892.366	6.586	3.950	0.000	0.016
58.490	5020.550	6.587	4.000	0.000	0.015
59.220	5137.962	6.587	4.050	0.000	0.011
59.950	5268.280	6.587	4.100	0.000	0.017
60.690	5401.590	6.588	4.150	0.000	0.015
61.430	5550.610	6.589	4.200	0.000	0.018
62.150	5691.506	6.589	4.250	0.000	0.019
62.880	5826.870	6.590	4.300	0.000	0.015
63.620	5968.152	6.591	4.350	0.000	0.017
64.350	6113.503	6.592	4.400	0.000	0.018
65.110	6258.046	6.593	4.450	0.000	0.013
65.830	6399.356	6.593	4.500	0.000	0.018
66.560	6550.844	6.594	4.550	0.000	0.016
67.310	6703.573	6.595	4.600	0.000	0.014
68.040	6855.747	6.596	4.650	0.000	0.013
68.760	7006.277	6.597	4.700	0.000	0.016
69.500	7165.795	6.598	4.750	0.000	0.017
70.230	7312.585	6.599	4.800	0.000	0.017
0.000	0.000	0.000	0.000	0.000	0.000
