电压/V	功率/mW	VT/uWb	Iset	开关状态	ILr
1.070	8.095	0.535	0.200	0.000	0.027
1.340	12.850	0.665	0.250	0.000	0.029
1.620	18.722	0.797	0.300	0.000	0.028
1.890	25.708	0.930	0.350	0.000	0.027
2.150	33.439	1.060	0.400	0.000	0.026
2.430	42.552	1.192	0.450	0.000	0.025
2.700	52.833	1.329	0.500	0.000	0.028
2.980	64.198	1.458	0.550	0.000	0.027
3.260	76.688	1.593	0.600	0.000	0.026
3.520	89.962	1.724	0.650	0.000	0.026
3.800	104.791	1.859	0.700	0.000	0.027
4.080	120.184	1.990	0.750	0.000	0.029
4.350	136.733	2.124	0.800	0.000	0.029
4.630	154.993	2.257	0.850	0.000	0.030
4.900	173.430	2.386	0.900	0.000	0.029
5.170	193.253	2.518	0.950	0.000	0.033
5.440	214.069	2.648	1.000	0.000	0.031
5.720	236.109	2.781	1.050	0.000	0.030
5.990	259.020	5.459	1.100	0.000	0.031
6.260	282.914	5.522	1.150	0.000	0.032
6.550	308.179	5.589	1.200	0.000	0.030
6.820	334.838	5.653	1.250	0.000	0.033
7.090	361.682	5.721	1.300	0.000	0.031
7.370	389.794	5.788	1.350	0.000	0.031
7.640	418.687	5.853	1.400	0.000	0.027
7.920	449.117	5.921	1.450	0.000	0.031
8.190	480.420	5.986	1.500	0.000	0.031
8.460	512.373	6.049	1.550	0.000	0.031
8.730	545.353	6.114	1.600	0.000	0.033
9.010	579.616	6.181	1.650	0.000	0.031
9.280	615.008	6.249	1.700	0.000	0.029
9.560	651.013	6.311	1.750	0.000	0.029
9.830	688.453	6.376	1.800	0.000	0.027
10.100	726.437	6.441	1.850	0.000	0.030
10.380	765.836	6.508	1.900	0.000	0.033
10.650	806.208	6.564	1.950	0.000	0.031
10.930	847.911	6.573	2.000	0.000	0.030
11.200	890.294	6.575	2.050	0.000	0.029
11.470	934.528	6.576	2.100	0.000	0.030
11.750	979.357	6.577	2.150	0.000	0.028
12.030	1024.317	6.578	2.200	0.000	0.030
12.300	1071.471	6.578	2.250	0.000	0.030
12.580	1119.969	6.579	2.300	0.000	0.030
12.860	1169.140	6.579	2.350	0.000	0.034
13.130	1219.482	6.579	2.400	0.000	0.025
13.410	1269.947	6.579	2.450	0.000	0.026
13.690	1321.690	6.580	2.500	0.000	0.028
13.960	1374.557	6.580	2.550	0.000	0.026
14.230	1428.376	6.580	2.600	0.000	0.029
14.510	1482.369	6.580	2.650	0.000	0.032
14.790	1538.061	6.580	2.700	0.000	0.027
15.060	1595.742	6.580	2.750	0.000	0.026
15.340	1654.580	6.581	2.800	0.000	0.031
15.610	1712.995	6.581	2.850	0.000	0.032
15.890	1773.149	6.581	2.900	0.000	0.029
16.160	1834.429	6.581	2.950	0.000	0.032
16.430	1895.869	6.581	3.000	0.000	0.032
16.710	1958.362	6.581	3.050	0.000	0.030
16.990	2022.931	6.582	3.100	0.000	0.029
17.260	2087.165	6.582	3.150	0.000	0.028
17.540	2152.991	6.582	3.200	0.000	0.028
17.810	2220.444	6.582	3.250	0.000	0.027
18.090	2289.326	6.582	3.300	0.000	0.029
18.360	2358.223	6.582	3.350	0.000	0.024
18.640	2429.119	6.582	3.400	0.000	0.031
18.910	2500.356	6.582	3.450	0.000	0.034
19.190	2574.012	6.583	3.500	0.000	0.031
19.460	2647.348	6.582	3.550	0.000	0.031
19.740	2722.403	6.583	3.600	0.000	0.027
20.010	2797.978	6.583	3.650	0.000	0.026
20.290	2874.790	6.583	3.700	0.000	0.027
20.570	2952.858	6.583	3.750	0.000	0.028
20.840	3031.971	6.583	3.800	0.000	0.028
21.110	3112.247	6.583	3.850	0.000	0.031
21.390	3194.597	6.583	3.900	0.000	0.029
21.670	3277.306	6.583	3.950	0.000	0.033
21.940	3361.306	6.583	4.000	0.000	0.028
22.210	3444.948	6.583	4.050	0.000	0.028
22.500	3532.728	6.583	4.100	0.000	0.027
22.770	3617.838	6.583	4.150	0.000	0.031
23.040	3705.836	6.583	4.200	0.000	0.032
23.310	3795.427	6.584	4.250	0.000	0.030
23.590	3886.346	6.583	4.300	0.000	0.024
23.860	3977.056	6.584	4.350	0.000	0.024
24.140	4069.026	6.584	4.400	0.000	0.024
24.420	4163.747	6.584	4.450	0.000	0.028
24.690	4259.506	6.584	4.500	0.000	0.024
24.970	4355.531	6.584	4.550	0.000	0.026
25.240	4453.938	6.584	4.600	0.000	0.024
25.510	4551.455	6.584	4.650	0.000	0.029
25.790	4652.490	6.584	4.700	0.000	0.024
26.060	4750.490	6.584	4.750	0.000	0.026
26.350	4855.607	6.584	4.800	0.000	0.025
26.620	4957.523	6.584	4.850	0.000	0.027
26.890	5060.658	6.584	4.900	0.000	0.029
27.170	5165.955	6.584	4.950	0.000	0.028
27.450	5276.672	6.584	5.000	0.000	0.028
0.000	0.000	0.000	0.000	0.000	0.000
